Folder: reccurence_analysis/hauke_function 

Note: hauke_function /content_of_variable_data.txt
Index	Variable	Source
		
1	Empty	Empty		
2	PC1	Chew Bahir Chew Bahir MSCL Col Ref		
3	PC2	Chew Bahir MSCL Col Ref		
4	PC3	Chew Bahir MSCL Col Ref		
5	PC4	Chew Bahir MSCL Col Ref		
6	PC5	Chew Bahir MSCL Col Ref		
7	Al	Chew Bahir XRF		
8	Ba	Chew Bahir XRF
9	Ca	Chew Bahir XRF
10	Cl	Chew Bahir XRF
11	Fe	Chew Bahir XRF
12	K	Chew Bahir XRF
13	Mn	Chew Bahir XRF
14	Rb	Chew Bahir XRF
15	S	Chew Bahir XRF
16	Si	Chew Bahir XRF
17	Sr	Chew Bahir XRF
18	Ti	Chew Bahir XRF
19	Zr	Chew Bahir XRF
20	Ones	Chew Bahir XRF			
21	Smectite Group	Chew Bahir Foerster	
22	Illite Group	Chew Bahir Foerster	
23	Analcime Group	Chew Bahir Foerster	
24	Analcime Intensity	Chew Bahir Foerster	
25	Smectite Inv Group	Chew Bahir Foerster		
26	Mag Sus	Chew Bahir LacCore		
27	Grainsize EM1	Chew Bahir Schaebitz
28	Grainsize EM2	Chew Bahir Schaebitz	
29	Grainsize EM3	Chew Bahir Schaebitz	
30	Grainsize EM4	Chew Bahir Schaebitz	
31	Grainsize EM5	Chew Bahir Schaebitz	
32	Grainsize Mean	Chew Bahir Schaebitz	
33	TC	Chew Bahir Schaebitz	
34	TIC	Chew Bahir Schaebitz	
35	TOC	Chew Bahir Schaebitz

Note: hauke_function /data_ir_spectroscopy.txt
%ID	Splice depth mid-point
1	3.286
2	18.971
3	19.208
4	41.979
5	47.399
6	71.246
7	99.524
8	106.194
9	115.23
10	124.22
11	134.506
12	139.637
13	139.957
14	140.625
15	170.966
16	187.205
17	187.693
18	193.132
19	193.775
20	219.133
21	223.374
22	224.014
23	230.98
24	232.652
25	232.967
26	240.861
27	242.462
28	243.102
29	252.746
30	254.028
31	265.201
32	268.633
33	271.624
34	279.67
35	286.218

Note: hauke_function /data_laskar_30S_DEC.txt
-1000.000     462.059865
    -999.000     465.808579
    -998.000     472.103556
    -997.000     480.909954
    -996.000     491.642075
    -995.000     503.514304
    -994.000     515.589361
    -993.000     526.916440
    -992.000     536.244911
    -991.000     542.641474
    -990.000     545.392702
    -989.000     543.856658
    -988.000     538.078033
    -987.000     528.488339
    -986.000     515.665023
    -985.000     500.885756
    -984.000     485.362259
    -983.000     470.482172
    -982.000     457.508158
    -981.000     447.704853
    -980.000     441.724932
    -979.000     440.289039
    -978.000     443.527119
    -977.000     451.271181
    -976.000     462.925413
    -975.000     477.766888
    -974.000     494.260657
    -973.000     511.198364
    -972.000     526.959867
    -971.000     539.868330
    -970.000     548.845501
    -969.000     552.957142
    -968.000     551.673869
    -967.000     545.435498
    -966.000     534.838101
    -965.000     520.907118
    -964.000     505.204675
    -963.000     489.131011
    -962.000     473.999477
    -961.000     461.221452
    -960.000     451.658094
    -959.000     445.885222
    -958.000     444.443386
    -957.000     447.190608
    -956.000     453.836215
    -955.000     463.970605
    -954.000     476.606701
    -953.000     490.691401
    -952.000     505.251140
    -951.000     518.802354
    -950.000     530.334471
    -949.000     538.835245
    -948.000     543.603023
    -947.000     544.173227
    -946.000     540.871570
    -945.000     533.814393
    -944.000     523.917363
    -943.000     512.154659
    -942.000     499.529228
    -941.000     487.118573
    -940.000     476.038779
    -939.000     466.925342
    -938.000     460.457735
    -937.000     457.035534
    -936.000     456.634224
    -935.000     459.152068
    -934.000     464.287972
    -933.000     471.326900
    -932.000     479.636716
    -931.000     488.466371
    -930.000     496.922212
    -929.000     504.254602
    -928.000     510.100688
    -927.000     513.724780
    -926.000     515.308647
    -925.000     514.818249
    -924.000     512.497761
    -923.000     508.865078
    -922.000     504.507611
    -921.000     499.749888
    -920.000     495.275846
    -919.000     491.396940
    -918.000     488.249728
    -917.000     486.121560
    -916.000     484.903000
    -915.000     484.445727
    -914.000     484.602873
    -913.000     485.214563
    -912.000     485.839321
    -911.000     486.579806
    -910.000     487.119250
    -909.000     487.474570
    -908.000     487.751252
    -907.000     488.039476
    -906.000     488.441475
    -905.000     489.292137
    -904.000     490.656918
    -903.000     492.591416
    -902.000     495.291918
    -901.000     498.528263
    -900.000     502.081205
    -899.000     505.760087
    -898.000     509.016745
    -897.000     511.425289
    -896.000     512.637486
    -895.000     512.182104
    -894.000     509.820606
    -89

Note: hauke_function /data_laskar_inso_0_jun.txt
-0.0000000e+00   3.8682939e+02
   1.0000000e+00   3.8580463e+02
   2.0000000e+00   3.8607605e+02
   3.0000000e+00   3.8752970e+02
   4.0000000e+00   3.9001644e+02
   5.0000000e+00   3.9346180e+02
   6.0000000e+00   3.9739736e+02
   7.0000000e+00   4.0151859e+02
   8.0000000e+00   4.0553010e+02
   9.0000000e+00   4.0894905e+02
   1.0000000e+01   4.1146866e+02
   1.1000000e+01   4.1301560e+02
   1.2000000e+01   4.1322281e+02
   1.3000000e+01   4.1223655e+02
   1.4000000e+01   4.1015176e+02
   1.5000000e+01   4.0709739e+02
   1.6000000e+01   4.0340630e+02
   1.7000000e+01   3.9948458e+02
   1.8000000e+01   3.9558553e+02
   1.9000000e+01   3.9211135e+02
   2.0000000e+01   3.8944434e+02
   2.1000000e+01   3.8766739e+02
   2.2000000e+01   3.8704510e+02
   2.3000000e+01   3.8762280e+02
   2.4000000e+01   3.8928139e+02
   2.5000000e+01   3.9188391e+02
   2.6000000e+01   3.9532515e+02
   2.7000000e+01   3.9907714e+02
   2.8000000e+01   4.0304708e+02
   2.9000000e+01   4.0679687e+02
   3.0000000e+01   4.1002256e+02
   3.1000000e+01   4.1252553e+02
   3.2000000e+01   4.1419132e+02
   3.3000000e+01   4.1479647e+02
   3.4000000e+01   4.1449444e+02
   3.5000000e+01   4.1332515e+02
   3.6000000e+01   4.1134044e+02
   3.7000000e+01   4.0880083e+02
   3.8000000e+01   4.0589657e+02
   3.9000000e+01   4.0268034e+02
   4.0000000e+01   3.9948857e+02
   4.1000000e+01   3.9638415e+02
   4.2000000e+01   3.9346914e+02
   4.3000000e+01   3.9093080e+02
   4.4000000e+01   3.8884163e+02
   4.5000000e+01   3.8716817e+02
   4.6000000e+01   3.8614951e+02
   4.7000000e+01   3.8567735e+02
   4.8000000e+01   3.8583331e+02
   4.9000000e+01   3.8664500e+02
   5.0000000e+01   3.8813393e+02
   5.1000000e+01   3.9012396e+02
   5.2000000e+01   3.9277879e+02
   5.3000000e+01   3.9582420e+02
   5.4000000e+01   3.9917174e+02
   5.5000000e+01   4.0273229e+02
   5.6000000e+01   4.0622568e+02
   5.7000000e+01   4.0941163e+02
   5.8000000e+01   4.1219512e+02
   5.9000000e+01   4.1420431e+02
   6.0000000e+01   4.1531142e+02
   6.1000000e+01   4.1544883e+02
   6.2000000e+01   4.1442152e+02
   6.3000000e+01   4.1232967e+02
   6.4000000e+01   4.0929559e+02
   6.5000000e+01   4.0548390e+02
   6.6000000e+01   4.0114022e+02
   6.7000000e+01   3.9672597e+02
   6.8000000e+01   3.9244407e+02
   6.9000000e+01   3.8875278e+02
   7.0000000e+01   3.8597280e+02
   7.1000000e+01   3.8432313e+02
   7.2000000e+01   3.8399387e+02
   7.3000000e+01   3.8514769e+02
   7.4000000e+01   3.8762108e+02
   7.5000000e+01   3.9140568e+02
   7.6000000e+01   3.9618425e+02
   7.7000000e+01   4.0165576e+02
   7.8000000e+01   4.0737019e+02
   7.9000000e+01   4.1294430e+02
   8.0000000e+01   4.1781167e+02
   8.1000000e+01   4.2161892e+02
   8.2000000e+01   4.2396168e+02
   8.3000000e+01   4.2456625e+02
   8.4000000e+01   4.2330121e+02
   8.5000000e+01   4.2024043e+02
   8.6000000e+01   4.1545132e+02
   8.7000000e+01   4.0933836e+02
   8.8000000e+01   4.0228868e+02
   8.9000000e+01   3.9479946e+02
   9.0000000e+01   3.8742531e+02

File: data_xrd.txt
   0.53   6   8   10   10310  -6
   1.77   8   1   0.0000000e+00   3080  -8
   2.478   7   4   1   3320  -7
   3.046   4   3   7   6810  -4
   4.171   5   6   7   6960  -5
   5.208   1   2   7   6910  -1
   6.359   5   5   9   9030  -5
   7.629   3   5   9   9370  -3
   8.872   4   4   10   10200  -4
   10.405   4   10   6   6070  -4
   11.665   2   5   10   9740  -2
   13.337   5   6   12   12470  -5
   17.931   2   4   10   9640  -2
   18.571   3   6   8   8170  -3
   19.848   6   3   10   9630  -6
   21.561   1   4   5   5130  -1
   23.088   7   8   4   4300  -7
   24.473   4   7   6   7340  -4
   25.758   5   5   10   10490  -5
   27.126   5   7   8   7980  -5
   28.399   2   4   6   6230  -2
   29.796   5   4   8   8490  -5
   31.043   10   7   0.0000000e+00   3000  -10
   32.333   5   2   9   9060  -5
   34.454   5   7   8   7610  -5
   35.706   7   6   8   7780  -7
   36.904   2   3   14   14130  -2
   38.474   6   6   7   6660  -6
   39.767   6   6   7   7540  -6
   41.074   10   6   0.0000000e+00   3680  -10
   46.919   7   4   0.0000000e+00   2810  -7
   49.79   2   3   5   4550  -2
   51.207   1   1   3   3310  -1
   54.965   7   8   0.0000000e+00   2910  -7
   61.355   7   1   0.0000000e+00   3410  -7
   62.655   7   7   0.0000000e+00   3280  -7
   63.947   5   7   0.0000000e+00   3820  -5
   66.957   9   4   0.0000000e+00   3450  -9
   68.237   9   2   0.0000000e+00   3410  -9
   69.155   9   7   0.0000000e+00   3410  -9
   70.435   5   5   0.0000000e+00   3330  -5
   71.646   4   3   0.0000000e+00   2710  -4
   72.449   8   8   5   5250  -8
   73.8   4   4   0.0000000e+00   2848  -4
   75.075   8   10   7   7490  -8
   76.36   4   6   7   6600  -4
   77.77   9   7   0.0000000e+00   3448  -9
   80.73   10   5   3   3151  -10
   81.95   9   2   0.0000000e+00   2910  -9
   83.28   6   2   0.0000000e+00   2990  -6
   84.56   5   8   0.0000000e+00   2910  -5
   85.84   6   5   0.0000000e+00   2910  -6
   87.869   5   3   6   6070  -5
   89.15   6   2   0.0000000e+00   2820  -6
   90.869   4   4   0.0000000e+00   3200  -4
   92.148   7   1   0.0000000e+00   3010  -7
   94.616   7   1   0.0000000e+00   3040  -7
   95.61   7   1   0.0000000e+00   3500  -7
   96.451   8   2   0.0000000e+00   3100  -8
   97.731   9   1   0.0000000e+00   3200  -9
   98.891   8   5   0.0000000e+00   3200  -8
   100.166   9   3   0.0000000e+00   3010  -9
   101.729   7   4   0.0000000e+00   2950  -7
   104.909   5   5   0.0000000e+00   2600  -5
   106.194   5   5   0.0000000e+00   2500  -5
   107.719   6   1   0.0000000e+00   3010  -6
   108.939   6   5   0.0000000e+00   3100  -6
   110.037   7   6   0.0000000e+00   3010  -7
   111.775   6   7   1   3600  -6
   113.58   8   4   0.0000000e+00   3210  -8
   114.27   7   1   0.0000000e+00   3060  -7
   114.91   5   2   0.0000000e+00   2860  -5
   116.19   5   4   5   5120  -5
   117.465   5   4   4   4140  -5
   118.254   5   6   6   5570  -5
   119.624   4   6   5   5320  -4
   120.612   3   4   4   4320  -3
   121.989   3   3   4   4320  -3
   123.26   7   5   2   3500  -7
   124.55   8   3   0.0000000e+00   3070  -8
   125.83   9   8   0.0000000e+00   3170  -9
   127.098   6   7   1   3710  -6
   128.453   8   1   1   3010  -8
   129.733   6   5   5   5080  -6
   131.008   0.0000000e+00   8   6   6760   0.0000000e+00
   132.293   1   7   5   5760  -1
   133.786   7   7   6   6580  -7
   134.966   1   10   8   8410  -1
   136.177   5   8   6   6150  -5
   137.457   3   8   5   5070  -3
   138.677   6   7   7   7820  -6
   139.957   7   7   7   7300  -7
   141.26   4   6   5   5890  -4
   142.526   9   3   7   7500  -9
   144.118   9   5   5   5400  -9
   146.406   7   6   9   9060  -7
   147.676   9   5   3   3960  -9
   149.276   9   1   0.0000000e+00   2940  -9
   150.548   5   3   0.0000000e+00   2150  -5
   151.688   1   7   5   5120  -1
   152.968   4   4   7   7160  -4
   154.06   5   5   7   7610  -5
   154.947   8   8   4   4240  -8
   157.202   9   3   0.0000000e+00   3340  -9
   158.949   8   1   0.0000000e+00   2950  -8
   160.239   8   3   0.0000000e+00   3080  -8
   162.42   1   7   2   3230  -1
   163.695   9   2   1   3300  -9
   165.481   10   0.0000000e+00   0.0000000e+00   3060  -10
   166.77   9   2   0.0000000e+00   2900  -9
   167.61   10   4   0.0000000e+00   2890  -10
   168.825   7   2   0.0000000e+00   3260  -7
   169.686   8   1   0.0000000e+00   3070  -8
   170.966   9   3   0.0000000e+00   3230  -9
   172.245   8   2   0.0000000e+00   3360  -8
   175.315   7   6   5   5450  -7
   176.907   2   7   5   5910  -2
   178.179   0.0000000e+00   7   6   6050   0.0000000e+00
   180.099   3   8   7   7150  -3
   181.244   6   8   4   4280  -6
   182.684   8   6   0.0000000e+00   3160  -8
   183.958   7   6   4   4680  -7
   185.607   7   7   0.0000000e+00   2890  -7
   186.885   8   6   0.0000000e+00   2940  -8
   188.013   7   6   0.0000000e+00   2840  -7
   189.293   7   6   0.0000000e+00   3070  -7
   190.256   7   7   0.0000000e+00   2830  -7
   191.534   8   5   0.0000000e+00   3140  -8
   192.812   8   8   0.0000000e+00   2830  -8
   194.41   7   6   0.0000000e+00   2910  -7
   196.196   6   5   0.0000000e+00   3380  -6
   198.131   8   4   0.0000000e+00   3200  -8
   199.411   4   6   0.0000000e+00   3200  -4
   200.356   3   6   0.0000000e+00   3120  -3
   201.636   2   4   1   3520  -2
   202.749   8   5   0.0000000e+00   3190  -8
   203.705   8   7   0.0000000e+00   3370  -8
   205.204   7   6   0.0000000e+00   2800  -7
   206.164   7   6   0.0000000e+00   2980  -7
   206.622   8   4   0.0000000e+00   2860  -8
   207.304   9   7   0.0000000e+00   2860  -9
   207.949   8   5   0.0000000e+00   2870  -8
   208.604   9   3   0.0000000e+00   3060  -9
   210.057   9   1   0.0000000e+00   3310  -9
   210.762   9   2   0.0000000e+00   2930  -9
   212.768   7   5   0.0000000e+00   3270  -7
   213.728   9   6   0.0000000e+00   3010  -9
   214.583   9   9   1   3190  -9
   215.982   7   6   0.0000000e+00   3220  -7
   217.251   10   2   0.0000000e+00   3210  -10
   218.493   6   6   0.0000000e+00   2800  -6
   219.769   6   6   0.0000000e+00   2800  -6
   220.906   4   7   6   6010  -4
   222.412   1   8   7   7250  -1
   223.694   2   8   8   8430  -2
   224.654   3   8   5   5980  -3
   225.747   5   7   5   5990  -5
   227.113   2   7   5   5340  -2
   228.698   0.0000000e+00   6   5   5730   0.0000000e+00
   229.722   7   6   0.0000000e+00   2640  -7
   230.77   6   8   0.0000000e+00   2910  -6
   231.607   7   6   1   3070  -7
   232.967   10   6   0.0000000e+00   2890  -10
   234.345   0.0000000e+00   0.0000000e+00   6   6650  -6
   235.751   1   8   5   5910  -1
   237.026   1   9   7   7490  -1
   238.298   6   8   7   7790  -6
   239.578   7   6   5   5020  -7
   240.861   1   8   5   5010  -1
   242.141   1   7   6   6660  -1
   243.102   5   6   9   9580  -5
   243.898   9   7   8   8140  -9
   244.934   10   2   9   9000  -10
   246.209   9   2   4   4220  -9
   247.494   8   3   1   3190  -8
   248.694   8   7   3   3750  -8
   249.978   7   5   0.0000000e+00   3040  -7
   251.258   7   8   0.0000000e+00   3040  -7
   252.426   4   4   0.0000000e+00   2610  -4
   253.708   6   6   0.0000000e+00   2860  -6
   255.89   8   8   0.0000000e+00   2950  -8
   256.533   8   6   0.0000000e+00   3080  -8
   257.804   8   4   0.0000000e+00   3010  -8
   259.814   7   8   0.0000000e+00   2790  -7
   261.21   7   8   0.0000000e+00   2900  -7
   262.94   1   6   1   2520  -1
   263.727   2   7   0.0000000e+00   2860  -2
   265.201   5   7   0.0000000e+00   2880  -5
   267.041   8   6   0.0000000e+00   3090  -8
   268.323   9   6   0.0000000e+00   3020  -9
   269.486   7   6   0.0000000e+00   3210  -7
   270.768   6   7   0.0000000e+00   2780  -6
   272.264   8   4   0.0000000e+00   3020  -8
   273.461   9   2   0.0000000e+00   3070  -9
   274.426   8   1   0.0000000e+00   2900  -8
   275.929   10   1   0.0000000e+00   3020  -10
   277.2   5   6   1   3240  -5
   280.369   7   5   1   3100  -7
   281.642   9   1   0.0000000e+00   2840  -9
   282.434   5   6   0.0000000e+00   2900  -5
   283.344   6   4   0.0000000e+00   2950  -6
   284.624   8   2   0.0000000e+00   3070  -8
   285.898   6   5   0.0000000e+00   3010  -6
   287.183   8   6   0.0000000e+00   3310  -8
   288.453   9   4   0.0000000e+00   3010  -9
   289.733   8   6   0.0000000e+00   3010  -8
   291.008   10   7   0.0000000e+00   3010  -10
   292.293   7   9   0.0000000e+00   3010  -7